Folder: datasetcsv

File: Concrete Compressive Strength.csv
Cement (component 1)(kg in a m^3 mixture),Blast Furnace Slag (component 2)(kg in a m^3 mixture),Fly Ash (component 3)(kg in a m^3 mixture),Water  (component 4)(kg in a m^3 mixture),Superplasticizer (component 5)(kg in a m^3 mixture),Coarse Aggregate  (component 6)(kg in a m^3 mixture),Fine Aggregate (component 7)(kg in a m^3 mixture),Age (day),"Concrete compressive strength(MPa, megapascals) "
540,0,0,162,2.5,1040,676,28,7.998.611.076
380,95,0,,0,932,594,365,43.698.299.404
427.5,47.5,0,228,0,932,594,270,4.301.296.026
380,95,0,228,,932,594,90,40.563.252.031.999.900
380,0,0,228,0,932,670,365,52.516.697.443.999.900
304,76,0,228,,932,670,365,55.260.122.448
237.5,237.5,0,228,0,932,594,28,30.079.769.451.999.900
237.5,237.5,0,228,0,932,594,365,38.995.383.608
237.5,237.5,0,228,0,932,594,7,26.258.003.984
139.6,209.4,0,192,0,1047,806.9,7,14.589.312.159.999.900
304,76,0,228,0,932,670,270,54.378.282.643.999.900
139.6,209.4,0,192,0,1047,806.9,360,44.698.039.603.999.900
425,106.3,0,153.5,16.5,852.1,887.1,3,33.398.217.439.999.900
388.6,97.1,0,157.9,12.1,852.1,925.7,,28.096.147
323.7,282.8,0,183.8,10.3,942.7,659.9,3,28.296.095.039.999.900
389.9,189,0,145.9,22,944.7,755.8,3,4.059.634.688
425,106.3,0,151.4,18.6,936,803.7,7,4.680.163.088
531.3,0,0,141.8,28.2,852.1,893.7,7,4.689.815.752
379.5,151.2,0,153.9,15.9,1134.3,605,7,4.709.810.556
362.6,189,0,164.9,11.6,944.7,755.8,7,2.289.749.796
375,93.8,0,126.6,23.4,852.1,992.6,,5.669.561.148
425,106.3,0,153.5,16.5,852.1,887.1,28,602.946.762
362.6,189,0,164.9,11.6,944.7,755.8,28,7.129.871.315.999.990
337.9,189,0,174.9,9.5,944.7,755.8,28,4.989.737.812
475,118.8,0,181.1,8.9,852.1,781.5,56,7.229.845.336
318.8,212.5,0,155.7,14.3,852.1,880.4,56,6.610.006.412
286.3,200.9,0,144.7,11.2,1004.6,803.7,56,7.299.482.412
374,189.2,0,170.1,10.1,926.1,756.7,91,6.490.037.588
469,117.2,0,137.8,32.2,852.1,840.5,91,7.069.886.903.999.990
401.8,94.7,0,147.4,11.4,946.8,852.1,91,7.549.762.199.999.990
439,177,0,186,11.1,884.9,707.9,91,7.329.819.356
222.36,0,96.67,189.29,4.46,967.08,870.32,28,248.900.836
233.81,0,94.58,197.89,4.567,947.04,852.16,56,2.766.177.712
194.68,0,100.52,165.62,7.48,1006.4,905.9,100,3.734.202.016
212.07,0,121.62,180.31,5.69,1057.6,779.32,3,1.247.262.084
229.97,0,118.31,195.47,4.63,1029.4,758.59,14,2.008.443.588
190.34,0,125.18,161.85,9.88,1088.1,802.59,28,2.846.846.404
166.09,0,163.27,176.46,4.49,1058.6,780.09,56,2.862.704.352
167.95,42.08,163.83,121.75,5.72,1058.7,780.11,100,392.311.844
213.76,98.06,24.52,181.74,6.65,1066,785.52,3,1.318.278.112
229.68,0,118.16,195.23,6.13,1028.1,757.63,14,2.231.833.812
238.05,0,94.11,186.66,7,949.91,847.01,28,302.335.226
250,0,95.69,187.42,5.53,956.86,861.17,56,3.832.797.084
212.52,0,100.37,159.32,8.71,1007.8,903.59,100,42.919.881
212,0,124.78,159,7.84,1085.4,799.54,3,19.519.065.559.999.900
231.75,0,121.62,173.96,6.72,1056.4,778.45,14,2.677.235.308
251.37,0,118.27,188.45,5.75,1028.4,757.73,28,29.654.362.759.999.900
251.37,0,118.27,188.45,6.35,1028.4,757.73,56,3.663.875.464
181.38,0,167.01,169.59,7.56,1055.6,777.8,100,453.675.208
168.88,42.22,124.25,158.33,10.83,1080.8,796.15,3,73.980.774.799.999.900
290.35,0,96.18,168.08,9.41,961.18,865,14,3.467.374.804
277.05,0,97.39,160.6,11.83,973.9,875.61,28,4.828.400.428
295.71,0,95.64,171.54,8.87,955.14,859.2,56,48.718.374.159.999.900
251.81,0,99.94,146.14,12.35,1006,899.76,100,453.675.208
252.31,0,98.75,146.25,14.17,987.76,889.01,3,2.178.054.684
246.83,0,125.08,143.3,11.99,1086.8,800.89,14,4.221.661.548
275.07,0,121.35,159.48,9.9,1053.6,777.5,28,51.331.488.199.999.900
297.16,0,117.54,174.8,9.52,1022.8,753.45,56,5.195.891.136
213.74,0,174.74,154.79,10.16,1053.5,776.35,100,5.007.664.188
277.19,97.82,24.46,160.7,11.19,1061.7,782.46,3,3.044.726.016
218.23,54.64,123.78,140.75,11.91,1075.7,792.67,14,359.561.734
214.9,53.8,121.89,155.63,9.61,1014.3,780.58,28,5.220.022.796
218.85,0,124.13,158.49,11.33,1078.7,794.91,56,372.661.778
376,0,0,214.6,0,1003.5,762.36,100,430.577.762
516,0,0,162,8.2,801,802,28,4.136.856
450.1,50,0,200,3,1124.4,613.2,28,3.937.597.436
516,0,0,162,8.26,801,802,28,4.136.856
285,190,0,163,7.6,1031,685,28,5.357.917.996
178.03,129.8,118.6,179.94,3.57,1007.3,746.8,3,2.072.564.856
190.34,0,125.18,166.61,9.88,1079,798.9,3,125.484.632
165,128.5,132.1,175.06,8.08,1005.8,746.6,14,3.308.795.324
173.81,93.37,159.9,172.34,9.73,1007.2,746.6,14,2.955.094.136
165,0.02,143.57,163.81,0,1005.6,900.9,28,26.200.088
167,75.4,167,164.03,7.91,1007.3,770.1,28,4.140.992.856
251.37,0,118.27,192.94,5.75,1043.6,754.3,28,3.327.411.176
173.54,50.05,173.53,164.77,6.47,1006.2,793.5,56,5.377.223.324
194.68,0,100.52,170.17,7.48,998,901.8,56,43.388.724.679.999.900
172.38,13.61,172.37,156.76,4.14,1006.3,856.4,100,376.798.634
213.5,0,174.24,159.21,11.66,1043.6,771.9,100,5.295.865.156
446,24,79,162,10.3,967,712,28,5.338.612.668
446,24,79,162,11.64,967,712,7,39.300.132
387,20,94,157,13.93,938,845,28,4.668.441.996
387,20,94,157,13.93,938,845,7,4.589.841.732
355,19,97,145,12.25,967,871,28,5.545.455.468
491,26,123,201,3.93,822,699,3,2.954.897.143.054.130
424,22,132,178,8.48,822,750,7,39.004.642.284.729.300
202,11,141,206,1.72,942,801,3,984.965.714.581.204
284,15,141,179,5.46,842,801,56,44.520.450.284.729.300
359,19,141,154,10.91,942,801,7,38.610.656
393,0,0,192,0,940.6,785.6,3,19.199.148.695.999.900
480,0,0,192,0,936.2,712.2,3,24.404.692.496
333,0,0,192,0,931.2,842.6,28,31.966.865.263.999.900
158.8,238.2,0,185.7,0,1040.6,734.3,7,9.617.500.724.000.000
272.8,181.9,0,185.7,0,1012.4,714.3,7,19.765.208.492
158.8,238.2,0,185.7,0,1040.6,734.3,28,21.066.249.704
295.8,0,0,185.7,0,1091.4,769.3,28,25.216.895.223.999.900
339.2,0,0,185.7,0,1069.2,754.3,7,21.179.323.768
170.3,155.5,0,185.7,0,1026.6,724.3,28,25.726.417.988
186.2,124.1,0,185.7,0,1083.4,764.3,7,7.995.853.172
316.1,210.7,0,185.7,0,977,689.3,7,24.437.787.344
339,0,0,197,0,968,781,14,2.704.124.872
236,0,0,194,0,968,885,14,1.283.804.312
277,0,0,191,0,968,856,28,25.965.666.159.999.900
254,0,0,198,0,968,863,90,2.694.472.208
307,0,0,193,0,968,812,28,2.753.077.668
225,0,0,181,0,1113,833,28,173.403.214
300,0,0,184,0,1075,795,28,26.848.195.439.999.900
250,0,0,182,0,1100,820,28,2.087.043.852
141.3,212,0,203.5,0,971.8,748.5,28,2.989.223.198
122.6,183.9,0,203.5,0,958.2,800.1,28,24.290.928.956
116,173,0,192,0,909.8,891.9,90,31.023.662.096.000.000
192,288,0,192,0,929.8,716.1,3,12.788.400.847.999.900
173,116,0,192,0,946.8,856.8,3,6.940.954.892
288,192,0,192,0,932,717.8,28,38.804.398.756.000.000
192,288,0,192,0,929.8,716.1,90,50.732.333.556
288,192,0,192,0,932,717.8,7,23.523.542.168
183.9,122.6,0,203.5,0,959.2,800,7,10.787.541.496
200,133,0,192,0,965.4,806.2,7,17.165.883.972
116,173,0,192,0,909.8,891.9,3,6.280.436.883.999.990
153,102,0,192,0,888,943.1,7,8.374.375.495.999.990
203.5,305.3,0,203.5,0,963.4,630,90,51.863.763.672
331,0,0,192,0,1025,821,3,14.306.626.999.999.900
349,0,0,192,0,1056,809,7,9.011.451.319.999.990
296,0,0,186,0,1090,769,7,1.891.232.668
281,0,0,186,0,1104,774,7,1.449.968.028
500,0,0,200,0,1125,613,28,440.919.902
540,0,0,173,0,1125,613,270,7.416.693.332
350,0,0,203,0,974,775,180,3.272.253.096
331,0,0,192,0,978,825,180,3.899.676.256
382,0,0,186,0,1111,784,7,1.146.598.588
238,0,0,185,0,1118,789,28,1.754.026.944
331,0,0,192,,978,825,28,3.144.700.036
349,0,0,192,0,1047,806,360,42.126.983.599.999.900
500,0,0,200,0,1125,613,270,5.515.808
393,0,0,192,0,940,758,28,3.958.281.716
310,0,0,192,,970,850,7,1.498.920.824
525,0,0,189,0,1125,613,7,4.242.345.828
322,0,0,203,0,974,800,28,2.517.966.352
522,0,0,146,0,896,896,28,7.498.740.975.999.990
310,143,111,168,22,914,651,28,3.368.779.736
310,143,0,168,10,914,804,28,452.985.732
366,187,0,191,7,824,757,28,6.590.701.084
298,0,107,186,6,879,815,28,4.263.719.584
322,149,0,186,8,951,709,28,5.242.086.028
298,0,107,,11,880,744,28,31.874.475.479.999.900
149,139,109,193,6,892,780,28,2.369.039.536
146,230,0,,3,827,872,28,330.603.742
140,133,103,,7,916,753,28,364.388.066
153,145,0,178,8,1000,822,28,1.900.885.332
143,169,143,,8,967,643,28,2.972.331.036
150,237,0,174,12,1069,675,28,37.431.652.039.999.900
266,112,87,,10,910,745,28,39.417.342.919.999.900
277,117,91,191,7,946,666,28,435.748.832
145,0,179,,8,824,869,28,1.053.519.328
136,196,98,199,6,847,783,28,2.696.540.636
159,209,161,201,7,848,669,28,30.881.630.039.999.900
236.9,91.7,71.5,,6,852.9,695.4,28,28.629.801.423.999.900
313.3,145,0,178.5,8,867.2,824,28,40.925.226.931.999.900
153.1,145,113,178.5,8,867.2,824,28,26.233.182.848.000.000
150.7,0,185.3,166.7,,1074.5,678,28,13.461.329.424
284,119.7,0,168.3,7.2,970.4,794.2,28,40.934.879.596
154.8,0,142.8,193.3,9.1,1047.4,696.7,28,12.459.520.796
145.7,172.6,0,181.9,3.4,985.8,816.8,28,23.744.174.488
155.2,183.9,143.2,193.8,9.2,879.6,698.5,28,28.991.086.848.000.000
154.8,0,142.8,193.3,9.1,877.2,867.7,28,9.738.159.024
151.8,178.1,138.7,167.5,18.3,944,694.6,28,36.349.864.196
152.6,238.7,0,200,6.3,1001.8,683.9,28,26.859.916.531.999.900
321.3,164.2,0,190.5,4.6,870,774,28,5.721.823.428.799.990
160.2,188,146.4,203.2,11.3,828.7,709.7,28,35.314.271.244
132,206.5,160.9,178.9,5.5,866.9,735.6,28,33.306.517.131.999.900
288.4,121,0,177.4,7,907.9,829.5,28,4.214.008.364.399.990
322.2,0,115.6,196,10.4,817.9,813.4,28,31.178.794.196.000.000
260.9,100.5,78.3,200.6,8.6,864.5,761.5,28,32.401.235.144